Folder: CMU-EDL-Electrolysis/example_data/Example_MEA_01/CVs

File: CVpost_C01.txt
Ewe/V	<I>/mA	cycle number
1.3407	-1.78333	1	0
1.36562	-15.4129	1	0
1.26966	-18.0532	1	0
1.17363	-16.8086	1	0
1.07768	-18.2226	1	0
0.981671	-24.02	1	0
0.885687	-36.5338	1	0
0.78965	-57.0758	1	0
0.693724	-258.427	1	0
0.597706	-49.8618	1	0
0.501744	-18.2774	1	0
0.405723	-14.9149	1	0
0.309735	-19.5478	1	0
0.213739	-33.7802	1	0
0.117695	-56.3936	1	0
0.175983	28.7095	1	0
0.271992	24.6394	1	0
0.367968	11.1229	1	0
0.463988	10.9538	1	0
0.559985	14.342	1	0
0.655964	19.1297	1	0
0.751944	34.4227	1	0
0.847976	50.047	1	0
0.943978	44.7907	1	0
1.03994	45.2584	1	0
1.13594	50.5639	1	0
1.23192	53.5178	1	0
1.32791	54.3629	1	0
1.3796	8.71911	2	0
1.28362	-13.7136	2	0
1.18762	-14.9833	2	0
1.09162	-17.1511	2	0
0.995685	-22.4281	2	0
0.899711	-40.0932	2	0
0.803698	-123.167	2	0
0.707682	-83.063	2	0
0.61171	-27.0125	2	0
0.515694	-15.0809	2	0
0.419707	-12.0919	2	0
0.323676	-14.9198	2	0
0.227705	-31.2743	2	0
0.131744	-48.3187	2	0
0.161981	30.1073	2	0
0.257962	28.1697	2	0
0.353948	11.9214	2	0
0.44997	10.8547	2	0
0.54593	13.5638	2	0
0.641996	18.2177	2	0
0.737965	29.4525	2	0
0.834007	50.6991	2	0
0.929937	44.2177	2	0
1.02591	44.0794	2	0
1.1219	48.6055	2	0
1.21792	52.2211	2	0
1.31391	52.9684	2	0
1.3936	34.3738	3	0
1.29756	-13.5059	3	0
1.20166	-14.0236	3	0
1.10568	-16.2036	3	0
1.0097	-20.521	3	0
0.913686	-35.2196	3	0
0.817697	-101.298	3	0
0.721656	-101.552	3	0
0.625699	-29.164	3	0
0.529699	-14.6847	3	0
0.433697	-11.812	3	0
0.337693	-13.0367	3	0
0.241674	-29.177	3	0
0.145683	-41.6602	3	0
0.147996	31.6594	3	0
0.24402	29.5992	3	0
0.339926	13.0168	3	0
0.43599	10.617	3	0
0.531919	13.062	3	0
0.627932	17.1163	3	0
0.723966	25.6784	3	0
0.819974	50.3739	3	0
0.915922	43.9661	3	0
1.01195	43.4037	3	0
1.10792	46.5885	3	0
1.20391	51.1807	3	0
1.29985	51.301	3	0
1.39433	71.6379	4	0
1.31164	-12.2466	4	0
1.21563	-13.947	4	0
1.11966	-15.7364	4	0
1.02365	-19.2009	4	0
0.927677	-31.3304	4	0
0.831682	-84.3128	4	0
0.735647	-120.235	4	0
0.639716	-32.3916	4	0
0.543728	-15.6576	4	0
0.447755	-12.3329	4	0
0.351689	-12.2327	4	0
0.255674	-26.3295	4	0
0.159698	-34.6559	4	0
0.134001	33.8913	4	0
0.229988	29.0232	4	0
0.325965	14.0687	4	0
0.422002	10.3568	4	0
0.517999	12.3766	4	0
0.613958	16.232	4	0
0.709934	23.0229	4	0
0.805923	47.2146	4	0
0.901935	44.0834	4	0
0.997923	43.5529	4	0
1.09392	45.8528	4	0
1.18986	50.196	4	0
1.2859	51.9886	4	0
1.38037	59.8418	5	0
1.3256	-10.9454	5	0
1.22964	-13.5529	5	0
1.13365	-14.5054	5	0
1.03766	-18.1265	5	0
0.941667	-29.2404	5	0
0.845723	-70.6855	5	0
0.749655	-137.63	5	0
0.653717	-37.8633	5	0
0.557668	-16.8053	5	0
0.461714	-14.135	5	0
0.365652	-12.4106	5	0
0.269707	-24.9058	5	0
0.173711	-32.7626	5	0
0.119973	35.518	5	0
0.215954	27.7459	5	0
0.311957	15.6948	5	0
0.407994	10.1597	5	0
0.504011	11.4675	5	0
0.599937	14.9727	5	0
0.695959	20.7756	5	0
0.79193	43.3291	5	0
0.88795	44.6508	5	0
0.983932	43.5953	5	0
1.07991	44.7674	5	0
1.1759	50.1337	5	0
1.27191	51.4525	5	0
1.3664	54.5945	6	0
1.33962	-9.56164	6	0
1.24361	-13.1921	6	0
1.14764	-14.8862	6	0
1.05168	-17.601	6	0
0.955692	-26.9345	6	0
0.859696	-64.9258	6	0
0.763673	-141.781	6	0
0.667652	-40.8344	6	0
0.571706	-17.623	6	0
0.475701	-12.665	6	0
0.379675	-11.6497	6	0
0.283735	-20.3216	6	0
0.187718	-29.8019	6	0
0.105998	32.7346	6	0
0.201939	27.2291	6	0
0.298015	17.9524	6	0
0.393954	10.9226	6	0
0.489972	11.8543	6	0
0.585976	15.1496	6	0
0.681948	19.8475	6	0
0.777954	40.2686	6	0
0.87397	46.3463	6	0
0.96993	43.1878	6	0
1.06593	44.3068	6	0
1.1619	49.8916	6	0
1.25789	50.945	6	0
1.35235	52.5869	7	0
1.35363	-6.93664	7	0
1.25766	-12.7437	7	0
1.16166	-14.1352	7	0
1.06573	-16.7503	7	0
0.969661	-24.9036	7	0
0.873693	-53.1797	7	0
0.777636	-147.22	7	0
0.681677	-47.547	7	0
0.585653	-18.9437	7	0
0.489781	-12.4315	7	0
0.393687	-11.6078	7	0
0.297718	-17.5603	7	0
0.2017	-28.6217	7	0
0.105768	-55.6246	7	0
0.187983	29.1245	7	0
0.283995	22.7559	7	0
0.379927	11.0971	7	0
0.476006	10.884	7	0
0.571976	13.7902	7	0
0.667957	19.0104	7	0
0.763936	33.3959	7	0
0.859963	47.641	7	0
0.955935	43.1573	7	0
1.05195	43.2178	7	0
1.1479	49.1255	7	0
1.2439	51.4648	7	0
1.33988	50.8448	7	0
1.3676	-2.97088	8	0
1.27164	-12.2256	8	0
1.17559	-13.5752	8	0
1.07967	-16.306	8	0
0.983696	-22.5043	8	0
0.887696	-45.7214	8	0
0.791688	-142.588	8	0
0.695673	-58.9831	8	0
0.599672	-21.5394	8	0
0.503741	-13.876	8	0
0.407697	-11.8222	8	0
0.311715	-15.7126	8	0
0.215731	-29.2131	8	0
0.119703	-52.8081	8	0
0.173985	28.6412	8	0
0.269954	25.2322	8	0
0.365964	10.8493	8	0
0.461981	10.1641	8	0
0.557948	13.3891	8	0
0.654001	18.3579	8	0
0.749942	30.1539	8	0
0.845971	49.1543	8	0
0.941904	41.9623	8	0
1.03797	43.2982	8	0
1.13391	47.139	8	0
1.22992	51.0907	8	0
1.32587	51.2917	8	0
1.38159	7.18087	9	0
1.28563	-12.4211	9	0
1.18964	-13.6522	9	0
1.09361	-15.6067	9	0
0.997679	-21.3305	9	0
0.901701	-40.3634	9	0
0.805673	-128.246	9	0
0.709652	-69.3437	9	0
0.613744	-23.0095	9	0
0.517747	-13.8805	9	0
0.421711	-11.57	9	0
0.325655	-14.5522	9	0
0.229733	-29.5847	9	0
0.133699	-47.7701	9	0
0.159971	31.8423	9	0
0.256004	29.2321	9	0
0.351979	11.9164	9	0
0.448017	9.63254	9	0
0.543984	12.5882	9	0
0.639989	17.048	9	0
0.735923	25.8207	9	0
0.831973	49.0395	9	0
0.927944	43.1293	9	0
1.02395	42.325	9	0
1.11995	45.6571	9	0
1.21586	50.1701	9	0
1.3119	50.034	9	0
1.3956	31.2399	10	0
1.29967	-11.9	10	0
1.20363	-13.4384	10	0
1.10766	-14.4432	10	0
1.01167	-19.4001	10	0
0.915708	-34.8247	10	0
0.819755	-107.172	10	0
0.723672	-85.2653	10	0
0.627698	-25.2697	10	0
0.531676	-13.8998	10	0
0.43574	-10.944	10	0
0.33972	-13.2561	10	0
0.243743	-29.02	10	0
0.147712	-40.6628	10	0
0.146006	30.9054	10	0
0.241992	28.4848	10	0
0.337962	13.8744	10	0
0.433996	10.0654	10	0
0.52996	12.0315	10	0
0.625937	15.7037	10	0
0.72195	23.0072	10	0
0.817972	46.5316	10	0
0.913954	41.9737	10	0
1.00994	42.1231	10	0
1.10591	45.407	10	0
1.20193	49.5454	10	0
1.2979	49.9856	10	0
1.39238	62.878	11	0
1.31364	-11.1005	11	0
1.21763	-12.5708	11	0
1.12163	-15.2103	11	0
1.02563	-18.3396	11	0
0.929641	-31.5354	11	0
0.83372	-89.6436	11	0
0.737688	-100.658	11	0
0.641704	-28.6793	11	0
0.54571	-14.6896	11	0
0.449732	-11.018	11	0
0.353658	-12.1371	11	0
0.257762	-27.904	11	0
0.161718	-33.9637	11	0
0.132024	34.5696	11	0
0.227956	27.381	11	0
0.323939	14.5328	11	0
0.42	9.55103	11	0
0.515982	11.7379	11	0
0.611968	14.3694	11	0
0.707945	21.1504	11	0
0.803971	43.7405	11	0
0.900009	41.8498	11	0
0.995951	42.0316	11	0
1.09193	44.1267	11	0
1.18791	48.8086	11	0
1.28393	49.5763	11	0
1.34078	50.6504	11	0

File: CVpre_C01.txt
Ewe/V	<I>/mA	cycle number
1.01917	-1.36326	1	0
1.11477	16.5285	1	0
1.21068	18.0705	1	0
1.3067	19.9279	1	0
1.39966	14.4298	1	0
1.30363	-15.5175	1	0
1.20762	-14.7211	1	0
1.1116	-15.2044	1	0
1.01561	-16.0908	1	0
0.919684	-26.7315	1	0
0.823648	-51.9053	1	0
0.727632	-151.336	1	0
0.631633	-211.915	1	0
0.535671	-30.0863	1	0
0.439764	-20.5546	1	0
0.343642	-23.4416	1	0
0.247718	-44.661	1	0
0.151659	-63.539	1	0
0.142968	35.9244	1	0
0.238954	33.2751	1	0
0.334958	15.3606	1	0
0.430951	11.0034	1	0
0.526938	14.794	1	0
0.62294	19.0584	1	0
0.71898	28.7953	1	0
0.814893	57.2953	1	0
0.91095	53.764	1	0
1.00696	54.9336	1	0
1.1018	59.7113	2	0
1.19779	65.2174	2	0
1.2938	66.0179	2	0
1.38979	75.4853	2	0
1.31662	-10.5757	2	0
1.22056	-13.9483	2	0
1.12463	-16.688	2	0
1.02869	-21.694	2	0
0.932685	-38.1499	2	0
0.836651	-105.474	2	0
0.740657	-146.431	2	0
0.644692	-40.5942	2	0
0.548645	-19.3971	2	0
0.452654	-14.8387	2	0
0.356657	-16.4932	2	0
0.26066	-34.2801	2	0
0.164675	-48.0847	2	0
0.129995	40.3635	2	0
0.22594	32.2197	2	0
0.321929	18.2983	2	0
0.417982	10.8714	2	0
0.513986	13.0849	2	0
0.609971	17.1144	2	0
0.705948	25.3358	2	0
0.801931	53.2627	2	0
0.897995	52.285	2	0
0.993913	51.9286	2	0
1.08884	54.1564	3	0
1.18477	60.9072	3	0
1.28084	62.6466	3	0
1.37681	66.3602	3	0
1.32963	-9.74049	3	0
1.23365	-13.4476	3	0
1.1376	-16.2613	3	0
1.04165	-20.5432	3	0
0.945676	-33.8028	3	0
0.849675	-86.8589	3	0
0.753648	-164.1	3	0
0.657715	-45.5376	3	0
0.561669	-20.8585	3	0
0.465725	-14.9399	3	0
0.369724	-15.6062	3	0
0.273683	-29.4591	3	0
0.177759	-42.0163	3	0
0.117022	39.9787	3	0
0.212986	31.6763	3	0
0.308972	20.0294	3	0
0.40497	11.3956	3	0
0.500967	12.173	3	0
0.596966	15.5585	3	0
0.692992	22.6032	3	0
0.788943	49.1166	3	0
0.884963	51.0903	3	0
0.980948	50.792	3	0
1.07587	52.3512	4	0
1.17183	58.6675	4	0
1.26782	62.4732	4	0
1.36378	61.2592	4	0
1.34258	-8.20093	4	0
1.24661	-13.7409	4	0
1.15065	-15.7437	4	0
1.05467	-20.4531	4	0
0.958675	-30.953	4	0
0.862682	-73.6284	4	0
0.766608	-173.467	4	0
0.67065	-50.9595	4	0
0.574654	-22.1219	4	0
0.478703	-15.5518	4	0
0.382686	-15.0576	4	0
0.286689	-25.0497	4	0
0.190663	-39.017	4	0
0.103939	25.716	4	0
0.199983	33.3102	4	0
0.295964	23.1718	4	0
0.391939	11.0842	4	0
0.488006	11.2372	4	0
0.583959	14.6729	4	0
0.679943	22.1626	4	0
0.775959	44.1029	4	0
0.871957	52.7	4	0
0.968012	50.4299	4	0
1.06282	50.3558	5	0
1.15883	56.8241	5	0
1.2548	60.2472	5	0
1.35076	61.0264	5	0
1.35564	-6.14857	5	0
1.2596	-13.5686	5	0
1.16368	-15.1468	5	0
1.06763	-19.4145	5	0
0.971657	-28.7462	5	0
0.87572	-62.3139	5	0
0.779655	-173.876	5	0
0.683646	-59.299	5	0
0.587668	-21.9882	5	0
0.491688	-15.2429	5	0
0.395686	-14.1166	5	0
0.2997	-22.277	5	0
0.203702	-36.5527	5	0
0.107731	-66.6946	5	0
0.186957	32.7926	5	0
0.283011	24.9067	5	0
0.379024	11.8543	5	0
0.474935	11.1345	5	0
0.570964	14.9227	5	0
0.666983	20.1549	5	0
0.762926	38.8737	5	0
0.858989	53.8307	5	0
0.954911	49.1045	5	0
1.04988	49.0707	6	0
1.1458	55.2539	6	0
1.24184	59.075	6	0
1.33781	59.0322	6	0
1.36862	-0.0878324	6	0
1.27265	-12.5915	6	0
1.17661	-14.3175	6	0
1.0807	-17.5209	6	0
0.984612	-25.2345	6	0
0.888715	-50.5903	6	0
0.79267	-157.932	6	0
0.696671	-73.4482	6	0
0.600695	-24.961	6	0
0.504717	-15.0517	6	0
0.408716	-13.8132	6	0
0.312704	-18.749	6	0
0.216669	-35.804	6	0
0.120698	-60.0162	6	0
0.173988	31.5087	6	0
0.270006	29.2614	6	0
0.365959	11.6052	6	0
0.462025	10.6081	6	0
0.557983	13.1899	6	0
0.653982	18.9747	6	0
0.749964	33.2538	6	0
0.846008	53.9159	6	0
0.941964	48.1494	6	0
1.03684	48.1676	7	0
1.13286	57.5961	7	0
1.22883	58.1107	7	0
1.32484	55.9802	7	0
1.38165	8.92923	7	0
1.28565	-12.7607	7	0
1.18963	-14.4398	7	0
1.09365	-16.8199	7	0
0.997719	-23.6876	7	0
0.901696	-46.9968	7	0
0.805668	-146.662	7	0
0.70969	-81.7386	7	0
0.613692	-25.6346	7	0
0.517709	-15.8719	7	0
0.421747	-13.0056	7	0
0.325693	-17.7525	7	0
0.229693	-35.0257	7	0
0.133695	-55.5205	7	0
0.160988	34.6635	7	0
0.256973	30.7134	7	0
0.352955	12.8915	7	0
0.449037	10.5895	7	0
0.544984	13.2644	7	0
0.640993	16.7444	7	0
0.736988	29.2266	7	0
0.832993	54.9815	7	0
0.928938	46.2185	7	0
1.02386	48.8154	8	0
1.1198	50.9672	8	0
1.21585	57.5046	8	0
1.31183	57.1644	8	0
1.39462	30.1865	8	0
1.29861	-12.4711	8	0
1.20265	-13.8779	8	0
1.10665	-15.3972	8	0
1.01067	-22.4644	8	0
0.914704	-40.0531	8	0
0.818713	-123.151	8	0
0.722604	-95.9566	8	0
0.62669	-28.8823	8	0
0.530671	-15.633	8	0
0.434726	-13.3778	8	0
0.338711	-15.4685	8	0
0.242677	-34.7717	8	0
0.146719	-49.9022	8	0
0.148025	35.1528	8	0
0.244024	29.3445	8	0
0.339972	13.7336	8	0
0.436035	10.0069	8	0
0.531956	11.7589	8	0
0.62795	16.661	8	0
0.723977	25.1948	8	0
0.819956	51.4477	8	0
0.916008	47.5072	8	0
1.01194	45.9277	8	0
1.10686	49.9701	9	0
1.2029	56.5186	9	0
1.29882	56.41	9	0
1.39475	70.2028	9	0
1.31162	-10.3671	9	0
1.21562	-12.9825	9	0
1.11967	-15.3591	9	0
1.02368	-19.8556	9	0
0.927712	-34.6588	9	0
0.831711	-99.1473	9	0
0.735653	-119.069	9	0
0.639704	-33.6335	9	0
0.543721	-16.3878	9	0
0.447721	-13.1492	9	0
0.351716	-14.421	9	0
0.255724	-31.1433	9	0
0.159718	-40.9723	9	0
0.13495	35.3302	9	0
0.231023	30.3324	9	0
0.326973	15.2286	9	0
0.422977	9.12901	9	0
0.518962	12.6854	9	0
0.614975	15.9492	9	0
0.710893	23.523	9	0
0.806903	50.8785	9	0
0.903009	47.9554	9	0
0.999037	46.6412	9	0
1.09378	49.4136	10	0
1.18981	54.4768	10	0
1.28586	55.8414	10	0
1.38178	61.5349	10	0
1.32462	-10.2056	10	0
1.22867	-12.8399	10	0
1.13265	-14.6786	10	0
1.03664	-17.7719	10	0
0.940655	-31.5766	10	0
0.844703	-86.7178	10	0
0.748669	-137.761	10	0
0.652676	-36.5219	10	0
0.556695	-17.4279	10	0
0.460727	-12.6731	10	0
0.364701	-12.9417	10	0
0.268718	-27.9032	10	0
0.172683	-37.707	10	0
0.121923	38.7391	10	0
0.217959	30.6169	10	0
0.313948	17.6586	10	0
0.409989	10.3886	10	0
0.505968	11.8622	10	0
0.601974	15.2269	10	0
0.697988	21.2324	10	0
0.793865	46.6346	10	0
0.889993	47.1954	10	0
0.985956	46.3749	10	0
1.08088	47.1258	11	0
1.17678	54.0903	11	0
1.27285	55.6971	11	0
1.36876	57.8552	11	0
1.33764	-8.23311	11	0
1.24162	-12.8293	11	0
1.14563	-14.531	11	0
1.04968	-18.6698	11	0
0.953707	-29.1541	11	0
0.857737	-70.778	11	0
0.761694	-147.338	11	0
0.665716	-42.3783	11	0
0.569665	-17.9545	11	0
0.473724	-13.3443	11	0
0.377695	-12.8688	11	0
0.281726	-24.1643	11	0
0.185744	-33.7895	11	0
0.108964	37.3374	11	0
0.205007	30.1685	11	0
0.300955	20.152	11	0
0.396939	10.63	11	0
0.492998	11.5427	11	0
0.588967	14.7501	11	0
0.684978	20.867	11	0
0.780949	42.8162	11	0
0.877015	48.3185	11	0
0.972941	46.3063	11	0
1.01917	45.5226	11	0