Folder: CMU-EDL-Electrolysis/example_data/Example_MEA_01/HighIV_CP

File: HighCurrCP_C01.txt
<Ewe/V>	I/mA	Ns	time/s
0.450909	507.242	0	08/31/2025 15:58:01.6850
1.47271	519.47	0	08/31/2025 15:58:10.6850
1.47443	521.508	0	08/31/2025 15:58:19.6850
1.47564	511.318	0	08/31/2025 15:58:28.6850
1.47659	508.771	0	08/31/2025 15:58:37.6850
1.4773	509.79	0	08/31/2025 15:58:46.6850
1.47785	518.451	0	08/31/2025 15:58:55.6850
1.47831	508.771	0	08/31/2025 15:59:04.6850
1.47832	514.885	0	08/31/2025 15:59:13.6850
1.47856	518.96	0	08/31/2025 15:59:22.6850
1.47882	513.866	0	08/31/2025 15:59:31.6850
1.47912	519.979	0	08/31/2025 15:59:40.6850
1.47942	517.432	0	08/31/2025 15:59:49.6850
1.47969	517.941	0	08/31/2025 15:59:58.6850
1.52557	1515.01	1	08/31/2025 16:00:07.6352
1.5263	1519.09	1	08/31/2025 16:00:16.6352
1.52693	1517.56	1	08/31/2025 16:00:25.6352
1.52754	1511.45	1	08/31/2025 16:00:34.6352
1.52796	1516.54	1	08/31/2025 16:00:43.6352
1.52835	1517.56	1	08/31/2025 16:00:52.6352
1.52878	1521.64	1	08/31/2025 16:01:01.6352
1.52911	1517.56	1	08/31/2025 16:01:10.6352
1.52943	1516.54	1	08/31/2025 16:01:19.6352
1.52968	1521.13	1	08/31/2025 16:01:28.6352
1.52998	1511.96	1	08/31/2025 16:01:37.6352
1.53022	1525.2	1	08/31/2025 16:01:46.6352
1.53045	1516.54	1	08/31/2025 16:01:55.6352
1.56608	2515.65	2	08/31/2025 16:02:04.5354
1.56666	2517.18	2	08/31/2025 16:02:13.5354
1.56709	2522.78	2	08/31/2025 16:02:22.5354
1.56742	2520.24	2	08/31/2025 16:02:31.5354
1.56781	2520.75	2	08/31/2025 16:02:40.5354
1.56813	2516.67	2	08/31/2025 16:02:49.5354
1.56835	2521.76	2	08/31/2025 16:02:58.5354
1.56851	2513.1	2	08/31/2025 16:03:07.5354
1.56859	2523.29	2	08/31/2025 16:03:16.5354
1.56867	2522.27	2	08/31/2025 16:03:25.5354
1.56875	2522.27	2	08/31/2025 16:03:34.5354
1.56875	2519.73	2	08/31/2025 16:03:43.5354
1.56876	2520.24	2	08/31/2025 16:03:52.5354
1.56887	2521.26	2	08/31/2025 16:04:01.5354
1.60142	3519.35	3	08/31/2025 16:04:10.4356
1.60173	3511.7	3	08/31/2025 16:04:19.4356
1.60195	3513.74	3	08/31/2025 16:04:28.4356
1.60212	3519.86	3	08/31/2025 16:04:37.4356
1.60228	3511.7	3	08/31/2025 16:04:46.4356
1.60243	3519.35	3	08/31/2025 16:04:55.4356
1.60254	3517.31	3	08/31/2025 16:05:04.4356
1.60264	3515.27	3	08/31/2025 16:05:13.4356
1.60273	3515.78	3	08/31/2025 16:05:22.4356
1.60284	3519.86	3	08/31/2025 16:05:31.4356
1.60294	3518.84	3	08/31/2025 16:05:40.4356
1.60305	3521.38	3	08/31/2025 16:05:49.4356
1.60315	3517.31	3	08/31/2025 16:05:58.4356
1.63424	4521	4	08/31/2025 16:06:07.3358
1.63454	4523.55	4	08/31/2025 16:06:16.3358
1.63478	4519.98	4	08/31/2025 16:06:25.3358
1.63497	4516.42	4	08/31/2025 16:06:34.3358
1.63516	4523.04	4	08/31/2025 16:06:43.3358
1.63532	4522.02	4	08/31/2025 16:06:52.3358
1.63545	4518.97	4	08/31/2025 16:07:01.3358
1.63573	4522.02	4	08/31/2025 16:07:10.3358
1.63588	4517.95	4	08/31/2025 16:07:19.3358
1.63587	4518.97	4	08/31/2025 16:07:28.3358
1.63608	4518.97	4	08/31/2025 16:07:37.3358
1.63606	4516.42	4	08/31/2025 16:07:46.3358
1.63615	4519.47	4	08/31/2025 16:07:55.3358
1.66616	5527.25	5	08/31/2025 16:08:04.2360
1.66631	5526.23	5	08/31/2025 16:08:13.2360
1.66656	5523.68	5	08/31/2025 16:08:22.2360
1.66674	5514	5	08/31/2025 16:08:31.2360
1.66687	5525.21	5	08/31/2025 16:08:40.2360
1.66702	5522.66	5	08/31/2025 16:08:49.2360
1.66716	5522.15	5	08/31/2025 16:08:58.2360
1.66728	5519.09	5	08/31/2025 16:09:07.2360
1.66742	5519.09	5	08/31/2025 16:09:16.2360
1.66754	5524.19	5	08/31/2025 16:09:25.2360
1.66766	5524.7	5	08/31/2025 16:09:34.2360
1.66786	5523.68	5	08/31/2025 16:09:43.2360
1.66796	5526.74	5	08/31/2025 16:09:52.2360
1.66807	5523.17	5	08/31/2025 16:10:01.2360
1.69748	6522.28	6	08/31/2025 16:10:10.1362
1.69761	6522.28	6	08/31/2025 16:10:19.1362
1.69776	6532.98	6	08/31/2025 16:10:28.1362
1.69788	6519.73	6	08/31/2025 16:10:37.1362
1.69798	6525.85	6	08/31/2025 16:10:46.1362
1.69818	6525.85	6	08/31/2025 16:10:55.1362
1.69827	6527.37	6	08/31/2025 16:11:04.1362
1.69833	6520.75	6	08/31/2025 16:11:13.1362
1.6984	6529.41	6	08/31/2025 16:11:22.1362
1.69848	6523.81	6	08/31/2025 16:11:31.1362
1.69854	6523.81	6	08/31/2025 16:11:40.1362
1.69859	6522.28	6	08/31/2025 16:11:49.1362
1.69866	6529.92	6	08/31/2025 16:11:58.1362
1.72734	7520.88	7	08/31/2025 16:12:07.0364
1.72747	7518.33	7	08/31/2025 16:12:16.0364
1.72757	7519.86	7	08/31/2025 16:12:25.0364
1.72768	7516.8	7	08/31/2025 16:12:34.0364
1.72778	7519.86	7	08/31/2025 16:12:43.0364
1.72789	7515.27	7	08/31/2025 16:12:52.0364
1.72802	7515.78	7	08/31/2025 16:13:01.0364
1.72814	7526.48	7	08/31/2025 16:13:10.0364
1.72827	7527.5	7	08/31/2025 16:13:19.0364
1.72835	7515.78	7	08/31/2025 16:13:28.0364
1.72849	7518.84	7	08/31/2025 16:13:37.0364
1.72863	7525.97	7	08/31/2025 16:13:46.0364
1.7288	7522.41	7	08/31/2025 16:13:55.0364
1.75715	8522.03	8	08/31/2025 16:14:03.9366
1.75707	8526.1	8	08/31/2025 16:14:12.9366
1.75719	8524.57	8	08/31/2025 16:14:21.9366
1.75735	8516.93	8	08/31/2025 16:14:30.9366
1.75732	8525.08	8	08/31/2025 16:14:39.9366
1.75738	8529.16	8	08/31/2025 16:14:48.9366
1.75735	8518.97	8	08/31/2025 16:14:57.9366
1.75751	8523.55	8	08/31/2025 16:15:06.9366
1.75745	8524.57	8	08/31/2025 16:15:15.9366
1.75742	8517.95	8	08/31/2025 16:15:24.9366
1.75767	8522.54	8	08/31/2025 16:15:33.9366
1.75764	8524.57	8	08/31/2025 16:15:42.9366
1.75781	8515.4	8	08/31/2025 16:15:51.9366
1.75789	8521.52	8	08/31/2025 16:16:00.9366
1.7861	9521.65	9	08/31/2025 16:16:09.8368
1.78624	9526.74	9	08/31/2025 16:16:18.8368
1.78635	9524.7	9	08/31/2025 16:16:27.8368
1.78648	9519.61	9	08/31/2025 16:16:36.8368
1.7866	9526.23	9	08/31/2025 16:16:45.8368
1.78676	9519.61	9	08/31/2025 16:16:54.8368
1.78684	9519.1	9	08/31/2025 16:17:03.8368
1.78689	9523.17	9	08/31/2025 16:17:12.8368
1.78696	9522.16	9	08/31/2025 16:17:21.8368
1.78704	9524.19	9	08/31/2025 16:17:30.8368
1.78708	9519.61	9	08/31/2025 16:17:39.8368
1.78717	9523.68	9	08/31/2025 16:17:48.8368
1.78725	9525.21	9	08/31/2025 16:17:57.8368
1.81504	10522.8	10	08/31/2025 16:18:06.7370
1.81514	10525.3	10	08/31/2025 16:18:15.7370
1.81521	10521.3	10	08/31/2025 16:18:24.7370
1.81533	10528.9	10	08/31/2025 16:18:33.7370
1.81542	10524.8	10	08/31/2025 16:18:42.7370
1.81553	10526.4	10	08/31/2025 16:18:51.7370
1.81559	10523.8	10	08/31/2025 16:19:00.7370
1.81569	10532.5	10	08/31/2025 16:19:09.7370
1.81578	10530.4	10	08/31/2025 16:19:18.7370
1.81588	10523.8	10	08/31/2025 16:19:27.7370
1.81599	10527.9	10	08/31/2025 16:19:36.7370
1.81604	10523.3	10	08/31/2025 16:19:45.7370
1.81614	10533	10	08/31/2025 16:19:54.7370
1.84367	11523.4	11	08/31/2025 16:20:03.6372
1.84367	11525.5	11	08/31/2025 16:20:12.6372
1.84369	11522.9	11	08/31/2025 16:20:21.6372
1.8437	11523.9	11	08/31/2025 16:20:30.6372
1.8438	11520.9	11	08/31/2025 16:20:39.6372
1.84354	11526	11	08/31/2025 16:20:48.6372
1.84374	11519.9	11	08/31/2025 16:20:57.6372
1.84398	11524.5	11	08/31/2025 16:21:06.6372
1.844	11517.3	11	08/31/2025 16:21:15.6372
1.84413	11525.5	11	08/31/2025 16:21:24.6372
1.84417	11521.4	11	08/31/2025 16:21:33.6372
1.84424	11524.5	11	08/31/2025 16:21:42.6372
1.84429	11527	11	08/31/2025 16:21:51.6372
1.84435	11523.9	11	08/31/2025 16:22:00.6372
1.87176	12527.6	12	08/31/2025 16:22:09.5374
1.87181	12519.5	12	08/31/2025 16:22:18.5374
1.87183	12529.2	12	08/31/2025 16:22:27.5374
1.87188	12522.5	12	08/31/2025 16:22:36.5374
1.87187	12526.1	12	08/31/2025 16:22:45.5374
1.87193	12530.2	12	08/31/2025 16:22:54.5374
1.87197	12526.6	12	08/31/2025 16:23:03.5374
1.87197	12527.6	12	08/31/2025 16:23:12.5374
1.87201	12522	12	08/31/2025 16:23:21.5374
1.8721	12525.1	12	08/31/2025 16:23:30.5374
1.87217	12525.1	12	08/31/2025 16:23:39.5374
1.87226	12521	12	08/31/2025 16:23:48.5374
1.87229	12528.1	12	08/31/2025 16:23:57.5374
1.89959	13528.3	13	08/31/2025 16:24:06.4376
1.89964	13525.7	13	08/31/2025 16:24:15.4376
1.89964	13530.3	13	08/31/2025 16:24:24.4376
1.89974	13529.3	13	08/31/2025 16:24:33.4376
1.89986	13523.2	13	08/31/2025 16:24:42.4376
1.89994	13530.8	13	08/31/2025 16:24:51.4376
1.9001	13526.7	13	08/31/2025 16:25:00.4376
1.9002	13524.2	13	08/31/2025 16:25:09.4376
1.90026	13532.3	13	08/31/2025 16:25:18.4376
1.90038	13526.7	13	08/31/2025 16:25:27.4376
1.90036	13529.8	13	08/31/2025 16:25:36.4376
1.90045	13525.2	13	08/31/2025 16:25:45.4376
1.90051	13537.4	13	08/31/2025 16:25:54.4376
1.9269	14529.4	14	08/31/2025 16:26:03.3378
1.92718	14527.9	14	08/31/2025 16:26:12.3378
1.92743	14526.4	14	08/31/2025 16:26:21.3378
1.92745	14530.4	14	08/31/2025 16:26:30.3378
1.92755	14524.8	14	08/31/2025 16:26:39.3378
1.92756	14526.4	14	08/31/2025 16:26:48.3378
1.92752	14533	14	08/31/2025 16:26:57.3378
1.92761	14519.2	14	08/31/2025 16:27:06.3378
1.92767	14528.9	14	08/31/2025 16:27:15.3378
1.9278	14525.9	14	08/31/2025 16:27:24.3378
1.92781	14532	14	08/31/2025 16:27:33.3378
1.9279	14529.9	14	08/31/2025 16:27:42.3378
1.92794	14521.8	14	08/31/2025 16:27:51.3378
1.92803	14519.7	14	08/31/2025 16:28:00.3378
1.95455	15526.5	15	08/31/2025 16:28:09.2380
1.95466	15525	15	08/31/2025 16:28:18.2380
1.95467	15526	15	08/31/2025 16:28:27.2380
1.95462	15525.5	15	08/31/2025 16:28:36.2380
1.95468	15522.9	15	08/31/2025 16:28:45.2380
1.95458	15527	15	08/31/2025 16:28:54.2380
1.95453	15523.4	15	08/31/2025 16:29:03.2380
1.95472	15527.5	15	08/31/2025 16:29:12.2380
1.95469	15529.5	15	08/31/2025 16:29:21.2380
1.95468	15524.5	15	08/31/2025 16:29:30.2380
1.95471	15521.9	15	08/31/2025 16:29:39.2380
1.95477	15530.6	15	08/31/2025 16:29:48.2380
1.95488	15528	15	08/31/2025 16:29:57.2380
1.98137	16528.7	16	08/31/2025 16:30:06.1382
1.98131	16524.1	16	08/31/2025 16:30:15.1382
1.98126	16528.7	16	08/31/2025 16:30:24.1382
1.98142	16535.3	16	08/31/2025 16:30:33.1382
1.98143	16525.6	16	08/31/2025 16:30:42.1382
1.98153	16522.5	16	08/31/2025 16:30:51.1382
1.98172	16522	16	08/31/2025 16:31:00.1382
1.9819	16518	16	08/31/2025 16:31:09.1381
1.98206	16524.1	16	08/31/2025 16:31:18.1381
1.98263	16522	16	08/31/2025 16:31:27.1381
1.98298	16531.2	16	08/31/2025 16:31:36.1381
1.98099	16530.7	16	08/31/2025 16:31:45.1381
1.98247	16529.7	16	08/31/2025 16:31:54.1381
2.00893	17531.3	17	08/31/2025 16:32:03.0383
2.00795	17529.8	17	08/31/2025 16:32:12.0383
2.00652	17523.7	17	08/31/2025 16:32:21.0383
2.05602	17531.8	17	08/31/2025 16:32:30.0383
2.01614	17529.3	17	08/31/2025 16:32:39.0383
1.31603	0.0000000E+000	17	08/31/2025 16:33:56.4639