Folder: CMU-EDL-Electrolysis/example_data/Example_MEA_01/LowIV_CP

File: LowCurrCP_C01.txt
<Ewe/V>	I/mA	Ns	time/s
0.888629	5.21152	0	08/31/2025 13:28:26.3890
0.976862	5.12241	0	08/31/2025 13:28:35.1890
1.02926	5.12878	0	08/31/2025 13:28:43.9890
1.07169	5.26244	0	08/31/2025 13:28:52.7890
1.11005	5.17333	0	08/31/2025 13:29:01.5890
1.14603	5.17333	0	08/31/2025 13:29:10.3890
1.18127	5.12241	0	08/31/2025 13:29:19.1890
1.21709	5.13514	0	08/31/2025 13:29:27.9890
1.2528	5.07786	0	08/31/2025 13:29:36.7890
1.28788	5.14151	0	08/31/2025 13:29:45.5890
1.32296	5.19243	0	08/31/2025 13:29:54.3890
1.35213	5.13514	0	08/31/2025 13:30:03.1890
1.36538	5.17333	0	08/31/2025 13:30:11.9890
1.37023	5.18606	0	08/31/2025 13:30:20.7890
1.37257	5.21788	0	08/31/2025 13:30:29.5890
1.37393	5.1606	0	08/31/2025 13:30:38.3890
1.37481	5.23061	0	08/31/2025 13:30:47.1890
1.37548	5.19879	0	08/31/2025 13:30:55.9890
1.37601	5.1797	0	08/31/2025 13:31:04.7890
1.37643	5.12878	0	08/31/2025 13:31:13.5890
1.3768	5.11605	0	08/31/2025 13:31:22.3890
1.37711	5.16697	0	08/31/2025 13:31:31.1890
1.37738	5.14787	0	08/31/2025 13:31:39.9890
1.37765	5.26244	0	08/31/2025 13:31:48.7890
1.37787	5.22425	0	08/31/2025 13:31:57.5890
1.37804	5.20515	0	08/31/2025 13:32:06.3890
1.37829	5.22425	0	08/31/2025 13:32:15.1890
1.37846	5.21788	0	08/31/2025 13:32:23.9890
1.37859	5.14151	0	08/31/2025 13:32:32.7890
1.37874	5.20515	0	08/31/2025 13:32:41.5890
1.37889	5.1797	0	08/31/2025 13:32:50.3890
1.37896	5.2688	0	08/31/2025 13:32:59.1890
1.37911	5.07786	0	08/31/2025 13:33:07.9890
1.37925	5.1606	0	08/31/2025 13:33:16.7890
1.37938	5.2688	0	08/31/2025 13:33:25.5890
1.37949	5.17333	0	08/31/2025 13:33:34.3890
1.37958	5.21152	0	08/31/2025 13:33:43.1890
1.37969	5.21152	0	08/31/2025 13:33:51.9890
1.37982	5.26244	0	08/31/2025 13:34:00.7890
1.37992	5.19879	0	08/31/2025 13:34:09.5890
1.38002	5.10332	0	08/31/2025 13:34:18.3890
1.38012	5.1606	0	08/31/2025 13:34:27.1890
1.38023	5.14151	0	08/31/2025 13:34:35.9890
1.38034	5.14151	0	08/31/2025 13:34:44.7890
1.3805	5.17333	0	08/31/2025 13:34:53.5890
1.38072	5.15424	0	08/31/2025 13:35:02.3890
1.38103	5.21788	0	08/31/2025 13:35:11.1890
1.38127	5.12878	0	08/31/2025 13:35:19.9890
1.38141	5.1797	0	08/31/2025 13:35:28.7890
1.3814	5.16697	0	08/31/2025 13:35:37.5890
1.38138	5.22425	0	08/31/2025 13:35:46.3890
1.38139	5.23698	0	08/31/2025 13:35:55.1890
1.38134	5.22425	0	08/31/2025 13:36:03.9890
1.38135	5.12878	0	08/31/2025 13:36:12.7890
1.38138	5.20515	0	08/31/2025 13:36:21.5890
1.39063	10.2078	1	08/31/2025 13:36:30.3394
1.3908	10.2333	1	08/31/2025 13:36:39.1394
1.39094	10.2142	1	08/31/2025 13:36:47.9394
1.39104	10.2078	1	08/31/2025 13:36:56.7394
1.39119	10.2842	1	08/31/2025 13:37:05.5394
1.39131	10.3033	1	08/31/2025 13:37:14.3394
1.39142	10.2397	1	08/31/2025 13:37:23.1394
1.39152	10.1887	1	08/31/2025 13:37:31.9394
1.39163	10.2142	1	08/31/2025 13:37:40.7394
1.39175	10.2269	1	08/31/2025 13:37:49.5394
1.39183	10.316	1	08/31/2025 13:37:58.3394
1.3919	10.2078	1	08/31/2025 13:38:07.1394
1.39196	10.1633	1	08/31/2025 13:38:15.9394
1.39202	10.1569	1	08/31/2025 13:38:24.7394
1.39768	15.2169	2	08/31/2025 13:38:33.4396
1.39779	15.1723	2	08/31/2025 13:38:42.2396
1.39797	15.1087	2	08/31/2025 13:38:51.0396
1.39811	15.1087	2	08/31/2025 13:38:59.8396
1.39822	15.1087	2	08/31/2025 13:39:08.6396
1.39857	15.1787	2	08/31/2025 13:39:17.4396
1.39847	15.1278	2	08/31/2025 13:39:26.2396
1.39838	15.1914	2	08/31/2025 13:39:35.0396
1.39829	15.1596	2	08/31/2025 13:39:43.8396
1.39815	15.1532	2	08/31/2025 13:39:52.6396
1.3981	15.2169	2	08/31/2025 13:40:01.4396
1.39804	15.2996	2	08/31/2025 13:40:10.2396
1.3979	15.2487	2	08/31/2025 13:40:19.0396
1.40197	20.2323	3	08/31/2025 13:40:27.7398
1.40204	20.2196	3	08/31/2025 13:40:36.5398
1.4021	20.2705	3	08/31/2025 13:40:45.3398
1.40207	20.1559	3	08/31/2025 13:40:54.1398
1.40212	20.2259	3	08/31/2025 13:41:02.9398
1.4021	20.1559	3	08/31/2025 13:41:11.7398
1.40204	20.1305	3	08/31/2025 13:41:20.5398
1.40202	20.2578	3	08/31/2025 13:41:29.3398
1.40208	20.245	3	08/31/2025 13:41:38.1398
1.40215	20.2641	3	08/31/2025 13:41:46.9398
1.40203	20.2068	3	08/31/2025 13:41:55.7398
1.40208	20.3087	3	08/31/2025 13:42:04.5398
1.402	20.2896	3	08/31/2025 13:42:13.3398
1.40197	20.2578	3	08/31/2025 13:42:22.1398
1.40511	25.1522	4	08/31/2025 13:42:30.8400
1.4051	25.1332	4	08/31/2025 13:42:39.6400
1.40501	25.2477	4	08/31/2025 13:42:48.4400
1.40515	25.1395	4	08/31/2025 13:42:57.2400
1.40549	25.2668	4	08/31/2025 13:43:06.0400
1.40525	25.2223	4	08/31/2025 13:43:14.8400
1.40521	25.1777	4	08/31/2025 13:43:23.6400
1.40504	25.2223	4	08/31/2025 13:43:32.4400
1.40502	25.2414	4	08/31/2025 13:43:41.2400
1.40514	25.1268	4	08/31/2025 13:43:50.0400
1.40562	25.1077	4	08/31/2025 13:43:58.8400
1.40586	25.1777	4	08/31/2025 13:44:07.6400
1.40607	25.1777	4	08/31/2025 13:44:16.4400
1.40612	25.1013	4	08/31/2025 13:44:25.2400
1.40866	30.314	5	08/31/2025 13:44:33.9402
1.4087	30.2249	5	08/31/2025 13:44:42.7402
1.40848	30.2759	5	08/31/2025 13:44:51.5402
1.40868	30.2695	5	08/31/2025 13:45:00.3402
1.40883	30.2759	5	08/31/2025 13:45:09.1402
1.4088	30.2568	5	08/31/2025 13:45:17.9402
1.40914	30.2186	5	08/31/2025 13:45:26.7402
1.40889	30.1868	5	08/31/2025 13:45:35.5402
1.40925	30.1995	5	08/31/2025 13:45:44.3402
1.40897	30.2759	5	08/31/2025 13:45:53.1402
1.40918	30.2631	5	08/31/2025 13:46:01.9402
1.40921	30.2186	5	08/31/2025 13:46:10.7402
1.40928	30.2186	5	08/31/2025 13:46:19.5402
1.41179	35.2594	6	08/31/2025 13:46:28.2404
1.41205	35.2594	6	08/31/2025 13:46:37.0404
1.41212	35.2467	6	08/31/2025 13:46:45.8404
1.41226	35.1703	6	08/31/2025 13:46:54.6404
1.41245	35.1894	6	08/31/2025 13:47:03.4404
1.41231	35.1385	6	08/31/2025 13:47:12.2404
1.41247	35.1385	6	08/31/2025 13:47:21.0404
1.41244	35.1831	6	08/31/2025 13:47:29.8404
1.41257	35.1067	6	08/31/2025 13:47:38.6404
1.41249	35.1703	6	08/31/2025 13:47:47.4404
1.41261	35.1958	6	08/31/2025 13:47:56.2404
1.41265	35.1894	6	08/31/2025 13:48:05.0404
1.41284	35.1703	6	08/31/2025 13:48:13.8404
1.41274	35.2849	6	08/31/2025 13:48:22.6404
1.41494	40.2749	7	08/31/2025 13:48:31.3406
1.41511	40.1348	7	08/31/2025 13:48:40.1406
1.41524	40.2494	7	08/31/2025 13:48:48.9406
1.41529	40.2621	7	08/31/2025 13:48:57.7406
1.41539	40.1985	7	08/31/2025 13:49:06.5406
1.41543	40.1667	7	08/31/2025 13:49:15.3406
1.41529	40.2621	7	08/31/2025 13:49:24.1406
1.41536	40.364	7	08/31/2025 13:49:32.9406
1.41542	40.2876	7	08/31/2025 13:49:41.7406
1.41531	40.2812	7	08/31/2025 13:49:50.5406
1.41549	40.2812	7	08/31/2025 13:49:59.3406
1.41561	40.2749	7	08/31/2025 13:50:08.1406
1.41561	40.2239	7	08/31/2025 13:50:16.9406
1.41566	40.2112	7	08/31/2025 13:50:25.7406
1.41741	45.2203	8	08/31/2025 13:50:34.4408
1.41762	45.2075	8	08/31/2025 13:50:43.2408
1.41753	45.1821	8	08/31/2025 13:50:52.0408
1.41757	45.2075	8	08/31/2025 13:51:00.8408
1.41747	45.2203	8	08/31/2025 13:51:09.6408
1.41726	45.2585	8	08/31/2025 13:51:18.4408
1.41736	45.2457	8	08/31/2025 13:51:27.2408
1.4175	45.2457	8	08/31/2025 13:51:36.0408
1.41736	45.2585	8	08/31/2025 13:51:44.8408
1.41761	45.1821	8	08/31/2025 13:51:53.6408
1.41771	45.1693	8	08/31/2025 13:52:02.4408
1.41785	45.1566	8	08/31/2025 13:52:11.2408
1.41789	45.1757	8	08/31/2025 13:52:20.0408
1.41951	50.1784	9	08/31/2025 13:52:28.7410
1.41985	50.1593	9	08/31/2025 13:52:37.5410
1.41994	50.3184	9	08/31/2025 13:52:46.3410
1.42	50.3248	9	08/31/2025 13:52:55.1410
1.42011	50.2293	9	08/31/2025 13:53:03.9410
1.42017	50.242	9	08/31/2025 13:53:12.7410
1.42003	50.172	9	08/31/2025 13:53:21.5410
1.42015	50.1784	9	08/31/2025 13:53:30.3410
1.41999	50.1466	9	08/31/2025 13:53:39.1410
1.42023	50.2484	9	08/31/2025 13:53:47.9410
1.42033	50.1657	9	08/31/2025 13:53:56.7410
1.42032	50.2993	9	08/31/2025 13:54:05.5410
1.42012	50.2229	9	08/31/2025 13:54:14.3410
1.42027	50.2548	9	08/31/2025 13:54:23.1410
1.43242	100.269	10	08/31/2025 13:54:31.8412
1.43293	100.212	10	08/31/2025 13:54:40.6412
1.43309	100.237	10	08/31/2025 13:54:49.4412
1.43323	100.256	10	08/31/2025 13:54:58.2412
1.43343	100.231	10	08/31/2025 13:55:07.0412
1.43311	100.237	10	08/31/2025 13:55:15.8412
1.43318	100.218	10	08/31/2025 13:55:24.6412
1.43337	100.377	10	08/31/2025 13:55:33.4412
1.43337	100.186	10	08/31/2025 13:55:42.2412
1.43365	100.25	10	08/31/2025 13:55:51.0412
1.43373	100.282	10	08/31/2025 13:55:59.8412
1.43388	100.301	10	08/31/2025 13:56:08.6412
1.43388	100.313	10	08/31/2025 13:56:17.4412
1.43397	100.383	10	08/31/2025 13:56:26.2412
1.44767	200.183	11	08/31/2025 13:56:34.9414
1.44789	200.24	11	08/31/2025 13:56:43.7414
1.4482	200.354	11	08/31/2025 13:56:52.5414
1.44834	200.303	11	08/31/2025 13:57:01.3414
1.44836	200.272	11	08/31/2025 13:57:10.1414
1.44841	200.259	11	08/31/2025 13:57:18.9414
1.44872	200.259	11	08/31/2025 13:57:27.7414
1.44889	200.278	11	08/31/2025 13:57:36.5414
1.44922	200.373	11	08/31/2025 13:57:45.3414
1.44921	200.272	11	08/31/2025 13:57:54.1414
1.44904	200.291	11	08/31/2025 13:58:02.9414
1.44912	200.278	11	08/31/2025 13:58:11.7414
1.44919	200.367	11	08/31/2025 13:58:20.5414
1.45836	300.37	12	08/31/2025 13:58:29.2416
1.45867	300.427	12	08/31/2025 13:58:38.0416
1.45891	300.376	12	08/31/2025 13:58:46.8416
1.45905	300.434	12	08/31/2025 13:58:55.6416
1.45917	300.421	12	08/31/2025 13:59:04.4416
1.45928	300.497	12	08/31/2025 13:59:13.2416
1.45939	300.421	12	08/31/2025 13:59:22.0416
1.45951	300.408	12	08/31/2025 13:59:30.8416
1.45961	300.535	12	08/31/2025 13:59:39.6416
1.45966	300.453	12	08/31/2025 13:59:48.4416
1.4598	300.338	12	08/31/2025 13:59:57.2416
1.45991	300.434	12	08/31/2025 14:00:06.0416
1.45999	300.427	12	08/31/2025 14:00:14.8416
1.46009	300.421	12	08/31/2025 14:00:23.6416
1.46759	400.411	13	08/31/2025 14:00:32.3418
1.46772	400.589	13	08/31/2025 14:00:41.1418
1.46781	400.551	13	08/31/2025 14:00:49.9418
1.46792	400.487	13	08/31/2025 14:00:58.7418
1.46807	400.595	13	08/31/2025 14:01:07.5418
1.46815	400.564	13	08/31/2025 14:01:16.3418
1.46828	400.481	13	08/31/2025 14:01:25.1418
1.46841	400.532	13	08/31/2025 14:01:33.9418
1.46852	400.487	13	08/31/2025 14:01:42.7417
1.46862	400.519	13	08/31/2025 14:01:51.5417
1.46873	400.564	13	08/31/2025 14:02:00.3417
1.46868	400.462	13	08/31/2025 14:02:09.1417
1.46884	400.5	13	08/31/2025 14:02:17.9417
1.46897	400.602	13	08/31/2025 14:02:26.3419